{
  "resourceType": "Bundle",
  "id": "R2444Bundle",
  "type": "document",
  "entry": [
    {
      "fullUrl": "Composition/R2444Document",
      "resource": {
        "resourceType": "Composition",
        "id": "R2444Document",
        "status": "final",
        "type": {
          "coding": [
            {
              "code": "erechnung",
              "system": "https://gematik.de/fhir/ergpkv/CodeSystem/ergpkv-rechnung-type-cs"
            }
          ]
        },
        "date": "2024-03-20",
        "author": [
          {
            "reference": "Practitioner/R2444Practitioner"
          }
        ],
        "title": "Zusammenfassung strukturierte Daten Rechnung 4-222",
        "section": [
          {
            "title": "Rechnung",
            "entry": [
              {
                "reference": "Invoice/R2444Rechnung"
              }
            ],
            "section": [
              {
                "title": "Position 1",
                "entry": [
                  {
                    "reference": "ChargeItem/R2444ChargeItem"
                  }
                ]
              }
            ]
          },
          {
            "title": "Diagnose",
            "entry": [
              {
                "reference": "Condition/R2444Diagnose"
              }
            ]
          },
          {
            "title": "Versicherte Person",
            "entry": [
              {
                "reference": "Patient/R2444PKVersichertePerson"
              }
            ]
          },
          {
            "title": "Beteiligter Leistungserbringer",
            "entry": [
              {
                "reference": "Practitioner/R2444Practitioner"
              }
            ]
          }
        ]
      }
    },
    {
      "fullUrl": "Invoice/R2444Rechnung",
      "resource": {
        "resourceType": "Invoice",
        "id": "R2444Rechnung",
        "extension": [
          {
            "url": "https://gematik.de/fhir/ergpkv/StructureDefinition/ExtensionBehandlungsart",
            "valueCoding": {
              "code": "AMB",
              "system": "https://gematik.de/fhir/ergpkv/CodeSystem/BehandlungsartCS"
            }
          }
        ],
        "identifier": [
          {
            "type": {
              "coding": [
                {
                  "code": "invoice",
                  "system": "http://fhir.de/CodeSystem/identifier-type-de-basis"
                }
              ]
            },
            "system": "http://Orthoschmerz.de/fhir/patienten",
            "value": "2-444"
          }
        ],
        "type": {
          "coding": [
            {
              "code": "erechnung",
              "system": "https://gematik.de/fhir/ergpkv/CodeSystem/ergpkv-rechnung-type-cs"
            }
          ],
          "extension": [
            {
              "url": "https://gematik.de/fhir/ergpkv/StructureDefinition/ergpkv-gebuehrenordnung-type",
              "valueCoding": {
                "code": "GOÄ",
                "system": "https://gematik.de/fhir/ergpkv/CodeSystem/GebuehrenordnungenCS"
              }
            }
          ]
        },
        "status": "issued",
        "participant": [
          {
            "role": {
              "coding": [
                {
                  "code": "39607008",
                  "system": "http://snomed.info/sct"
                }
              ]
            },
            "actor": {
              "reference": "Practitioner/R2444Practitioner"
            }
          }
        ],
        "recipient": {
          "reference": "Patient/R2444PKVersichertePerson",
          "identifier": {
            "type": {
              "coding": [
                {
                  "code": "KVZ10",
                  "system": "http://fhir.de/CodeSystem/identifier-type-de-basis"
                }
              ]
            },
            "system": "http://fhir.de/sid/gkv/kvid-10",
            "value": "A000111222000333444"
          },
          "display": "Emilia Schmitt"
        },
        "subject": {
          "display": "Emilia Schmitt"
        },
        "date": "2024-03-20",
        "issuer": {
          "identifier": {
            "type": {
              "coding": [
                {
                  "code": "PRN",
                  "system": "http://terminology.hl7.org/CodeSystem/v2-0203"
                }
              ]
            },
            "system": "https://gematik.de/fhir/sid/telematik-id",
            "value": "11223344"
          },
          "display": "Frau, Dr. med., Olivia, Orthoschmerz"
        },
        "lineItem": [
          {
            "chargeItemReference": {
              "reference": "ChargeItem/R2444ChargeItem"
            }
          }
        ],
        "totalNet": {
          "value": 13.71,
          "currency": "EUR"
        },
        "totalGross": {
          "value": 16.32,
          "currency": "EUR"
        },
        "paymentTerms": "\n**Bankinformationen:**\n\n- **Kontoinhalberin:** `Dr. med. Olivia Orthoschmerz`\n- **IBAN:** `DE00 100 200 300 400 67`\n- **BIC:** `MUSTERBIC11`\n- **Name der Bank:** Musterbank AG\n- **Verwendungszweck:** z.B. Rechnungs-Nr. 2-444\n",
        "_paymentTerms": {
          "extension": [
            {
              "url": "https://gematik.de/fhir/ergpkv/StructureDefinition/ergpkv-zahlungsziel",
              "valueDate": "2024-04-19"
            }
          ]
        }
      }
    },
    {
      "fullUrl": "ChargeItem/R2444ChargeItem",
      "resource": {
        "resourceType": "ChargeItem",
        "id": "R2444ChargeItem",
        "meta": {
          "profile": [
            "https://gematik.de/fhir/ergpkv/StructureDefinition/ergpkv-rechnungsposition"
          ]
        },
        "extension": [
          {
            "url": "https://gematik.de/fhir/ergpkv/StructureDefinition/ergpkv-preisdetails-rechnungsposition",
            "extension": [
              {
                "url": "type",
                "valueCode": "tax"
              }
            ]
          }
        ],
        "status": "billable",
        "code": {
          "coding": [
            {
              "system": "http://fhir.de/CodeSystem/bäk/goä",
              "code": "5"
            }
          ],
          "text": "Symptombezogene Untersuchung"
        },
        "subject": {
          "reference": "Patient/R2444PKVersichertePerson",
          "display": "Emilia Schmitt"
        },
        "occurrencePeriod": {
          "start": "2024-03-20"
        },
        "quantity": {
          "value": 1
        },
        "factorOverride": 3.5,
        "priceOverride": {
          "value": 16.32
        }
      }
    },
    {
      "fullUrl": "Condition/R2444Diagnose",
      "resource": {
        "resourceType": "Condition",
        "id": "R2444Diagnose",
        "code": {
          "coding": [
            {
              "system": "http://fhir.de/CodeSystem/bfarm/icd-10-gm",
              "code": "M54.5",
              "version": "2024",
              "display": "Verdacht auf Kreuzschmerz"
            }
          ]
        },
        "subject": {
          "reference": "Patient/R2444PKVersichertePerson"
        },
        "recordedDate": "2024-03-20"
      }
    },
    {
      "fullUrl": "Patient/R2444PKVersichertePerson",
      "resource": {
        "resourceType": "Patient",
        "id": "R2444PKVersichertePerson",
        "meta": {
          "profile": [
            "https://gematik.de/fhir/ergpkv/StructureDefinition/ergpkv-versicherteperson"
          ]
        },
        "identifier": [
          {
            "type": {
              "coding": [
                {
                  "code": "KVZ10",
                  "system": "http://fhir.de/CodeSystem/identifier-type-de-basis"
                }
              ]
            },
            "system": "http://fhir.de/sid/gkv/kvid-10",
            "value": "A000111222000333444"
          }
        ],
        "active": true,
        "name": [
          {
            "family": "Schmitt",
            "given": [
              "Emilia"
            ],
            "text": "Emilia Schmitt"
          }
        ],
        "birthDate": "2005-02-01"
      }
    },
    {
      "fullUrl": "Practitioner/R2444Practitioner",
      "resource": {
        "resourceType": "Practitioner",
        "id": "R2444Practitioner",
        "identifier": [
          {
            "type": {
              "coding": [
                {
                  "code": "PRN",
                  "system": "http://terminology.hl7.org/CodeSystem/v2-0203"
                }
              ]
            },
            "system": "https://gematik.de/fhir/sid/telematik-id",
            "value": "11223344"
          }
        ],
        "address": [
          {
            "use": "official",
            "type": "physical",
            "line": [
              "Marktplatz 2"
            ],
            "_line": [
              {
                "extension": [
                  {
                    "url": "http://hl7.org/fhir/StructureDefinition/iso21090-ADXP-streetName",
                    "valueString": "Marktplatz"
                  },
                  {
                    "url": "http://hl7.org/fhir/StructureDefinition/iso21090-ADXP-houseNumber",
                    "valueString": "2"
                  }
                ]
              }
            ],
            "postalCode": "12345",
            "city": "Musterstadt"
          }
        ],
        "name": [
          {
            "text": "Frau, Dr. med., Olivia, Orthoschmerz",
            "family": "Orthoschmerz",
            "given": [
              "Olivia"
            ],
            "prefix": [
              "Dr",
              "med"
            ]
          }
        ],
        "gender": "female",
        "qualification": [
          {
            "code": {
              "coding": [
                {
                  "system": "urn:oid:1.2.276.0.76.5.514",
                  "code": "71103",
                  "display": "FA Orthopädie und Unfallchirurgie"
                }
              ]
            }
          }
        ]
      }
    }
  ]
}
